{
    "resourceType": "Bundle",
    "meta": {
        "tag": [{
                "system": "http://highmed.org/fhir/CodeSystem/authorization-role",
                "code": "REMOTE"
            }
        ]
    },
    "identifier": {
        "system": "http://highmed.org/fhir/CodeSystem/update-whitelist",
        "value": "highmed_whitelist"
    },
    "type": "transaction",
    "entry": [{
            "fullUrl": "urn:uuid:18d87756-1ceb-4925-b2c2-9846f353f219",
            "resource": {
                "resourceType": "Organization",
                "meta": {
                    "profile": ["http://highmed.org/fhir/StructureDefinition/highmed-organization"],
                    "tag": [{
                            "system": "http://highmed.org/fhir/CodeSystem/authorization-role",
                            "code": "REMOTE"
                        }
                    ]
                },
                "extension": [{
                        "url": "http://highmed.org/fhir/StructureDefinition/certificate-thumbprint",
                        "valueString": "b72203e163acc1bfd9c2db24c248b36cea282b5986b70e5c40ee33599c34e1b00d2bdea1598663a61a8441024f40b4924a453ed75108eeb2a7f7b9a2027871bc"
                    }
                ],
                "identifier": [{
                        "system": "http://highmed.org/fhir/NamingSystem/organization-identifier",
                        "value": "Test_MeDIC_2"
                    }
                ],
                "active": true,
                "type": [{
                        "coding": [{
                                "system": "http://highmed.org/fhir/CodeSystem/organization-type",
                                "code": "MeDIC"
                            }
                        ]
                    }
                ],
                "name": "Test MeDIC 2",
                "endpoint": [{
                        "reference": "urn:uuid:d2dd5ba3-22f0-4406-bdd6-7a939d9a347e",
                        "type": "Endpoint"
                    }
                ]
            },
            "request": {
                "method": "PUT",
                "url": "Organization?identifier=http://highmed.org/fhir/NamingSystem/organization-identifier|Test_MeDIC_2"
            }
        }, {
            "fullUrl": "urn:uuid:d2dd5ba3-22f0-4406-bdd6-7a939d9a347e",
            "resource": {
                "resourceType": "Endpoint",
                "meta": {
                    "profile": ["http://highmed.org/fhir/StructureDefinition/highmed-endpoint"],
                    "tag": [{
                            "system": "http://highmed.org/fhir/CodeSystem/authorization-role",
                            "code": "REMOTE"
                        }
                    ]
                },
                "identifier": [{
                        "system": "http://highmed.org/fhir/NamingSystem/endpoint-identifier",
                        "value": "Test_MeDIC_2_Endpoint"
                    }
                ],
                "status": "active",
                "connectionType": {
                    "system": "http://terminology.hl7.org/CodeSystem/endpoint-connection-type",
                    "code": "hl7-fhir-rest"
                },
                "name": "Test MeDIC 2 Endpoint",
                "managingOrganization": {
                    "reference": "urn:uuid:18d87756-1ceb-4925-b2c2-9846f353f219",
                    "type": "Organization"
                },
                "payloadType": [{
                        "coding": [{
                                "system": "http://hl7.org/fhir/resource-types",
                                "code": "Task"
                            }
                        ]
                    }
                ],
                "payloadMimeType": ["application/fhir+json", "application/fhir+xml"],
                "address": "https://medic2/fhir"
            },
            "request": {
                "method": "PUT",
                "url": "Endpoint?identifier=http://highmed.org/fhir/NamingSystem/endpoint-identifier|Test_MeDIC_2_Endpoint"
            }
        }, {
            "fullUrl": "urn:uuid:e3c9ee5c-199d-4fc8-869c-d1fd1cf7283e",
            "resource": {
                "resourceType": "Organization",
                "meta": {
                    "profile": ["http://highmed.org/fhir/StructureDefinition/highmed-organization"],
                    "tag": [{
                            "system": "http://highmed.org/fhir/CodeSystem/authorization-role",
                            "code": "REMOTE"
                        }
                    ]
                },
                "extension": [{
                        "url": "http://highmed.org/fhir/StructureDefinition/certificate-thumbprint",
                        "valueString": "fe9b49ccf259929485e55f8a03c1d74c147bd374debdc0c4ef48f75e74cdfd03e19cc2f79da1f53acd433734acae017c8d01c30f448675a1e77f0b80adf7023b"
                    }
                ],
                "identifier": [{
                        "system": "http://highmed.org/fhir/NamingSystem/organization-identifier",
                        "value": "Test_TTP"
                    }
                ],
                "active": true,
                "type": [{
                        "coding": [{
                                "system": "http://highmed.org/fhir/CodeSystem/organization-type",
                                "code": "TTP"
                            }
                        ]
                    }
                ],
                "name": "Test TTP",
                "endpoint": [{
                        "reference": "urn:uuid:a61d80be-0238-41a3-b270-9e8fc356f7e3",
                        "type": "Endpoint"
                    }
                ]
            },
            "request": {
                "method": "PUT",
                "url": "Organization?identifier=http://highmed.org/fhir/NamingSystem/organization-identifier|Test_TTP"
            }
        }, {
            "fullUrl": "urn:uuid:a61d80be-0238-41a3-b270-9e8fc356f7e3",
            "resource": {
                "resourceType": "Endpoint",
                "meta": {
                    "profile": ["http://highmed.org/fhir/StructureDefinition/highmed-endpoint"],
                    "tag": [{
                            "system": "http://highmed.org/fhir/CodeSystem/authorization-role",
                            "code": "REMOTE"
                        }
                    ]
                },
                "identifier": [{
                        "system": "http://highmed.org/fhir/NamingSystem/endpoint-identifier",
                        "value": "Test_TTP_Endpoint"
                    }
                ],
                "status": "active",
                "connectionType": {
                    "system": "http://terminology.hl7.org/CodeSystem/endpoint-connection-type",
                    "code": "hl7-fhir-rest"
                },
                "name": "Test TTP Endpoint",
                "managingOrganization": {
                    "reference": "urn:uuid:e3c9ee5c-199d-4fc8-869c-d1fd1cf7283e",
                    "type": "Organization"
                },
                "payloadType": [{
                        "coding": [{
                                "system": "http://hl7.org/fhir/resource-types",
                                "code": "Task"
                            }
                        ]
                    }
                ],
                "payloadMimeType": ["application/fhir+json", "application/fhir+xml"],
                "address": "https://ttp/fhir"
            },
            "request": {
                "method": "PUT",
                "url": "Endpoint?identifier=http://highmed.org/fhir/NamingSystem/endpoint-identifier|Test_TTP_Endpoint"
            }
        }, {
            "fullUrl": "urn:uuid:8d9eb2e7-5940-46d5-9035-90151b6d5f7a",
            "resource": {
                "resourceType": "Organization",
                "meta": {
                    "profile": ["http://highmed.org/fhir/StructureDefinition/highmed-organization"],
                    "tag": [{
                            "system": "http://highmed.org/fhir/CodeSystem/authorization-role",
                            "code": "REMOTE"
                        }
                    ]
                },
                "extension": [{
                        "url": "http://highmed.org/fhir/StructureDefinition/certificate-thumbprint",
                        "valueString": "dc737f1a58605847002d422dc36127e6418c8b9cb295517ff4d8684af64aed49290729e8f9315ef5189b80dcaa9ccd3fdc4aa0210e425218de98c85145f3e88d"
                    }
                ],
                "identifier": [{
                        "system": "http://highmed.org/fhir/NamingSystem/organization-identifier",
                        "value": "Test_MeDIC_1"
                    }
                ],
                "active": true,
                "type": [{
                        "coding": [{
                                "system": "http://highmed.org/fhir/CodeSystem/organization-type",
                                "code": "MeDIC"
                            }
                        ]
                    }
                ],
                "name": "Test MeDIC 1",
                "endpoint": [{
                        "reference": "urn:uuid:89dc2b55-fec3-44d5-86c1-8fc35dfeb3b8",
                        "type": "Endpoint"
                    }
                ]
            },
            "request": {
                "method": "PUT",
                "url": "Organization?identifier=http://highmed.org/fhir/NamingSystem/organization-identifier|Test_MeDIC_1"
            }
        }, {
            "fullUrl": "urn:uuid:89dc2b55-fec3-44d5-86c1-8fc35dfeb3b8",
            "resource": {
                "resourceType": "Endpoint",
                "meta": {
                    "profile": ["http://highmed.org/fhir/StructureDefinition/highmed-endpoint"],
                    "tag": [{
                            "system": "http://highmed.org/fhir/CodeSystem/authorization-role",
                            "code": "REMOTE"
                        }
                    ]
                },
                "identifier": [{
                        "system": "http://highmed.org/fhir/NamingSystem/endpoint-identifier",
                        "value": "Test_MeDIC_1_Endpoint"
                    }
                ],
                "status": "active",
                "connectionType": {
                    "system": "http://terminology.hl7.org/CodeSystem/endpoint-connection-type",
                    "code": "hl7-fhir-rest"
                },
                "name": "Test MeDIC 1 Endpoint",
                "managingOrganization": {
                    "reference": "urn:uuid:8d9eb2e7-5940-46d5-9035-90151b6d5f7a",
                    "type": "Organization"
                },
                "payloadType": [{
                        "coding": [{
                                "system": "http://hl7.org/fhir/resource-types",
                                "code": "Task"
                            }
                        ]
                    }
                ],
                "payloadMimeType": ["application/fhir+json", "application/fhir+xml"],
                "address": "https://medic1/fhir"
            },
            "request": {
                "method": "PUT",
                "url": "Endpoint?identifier=http://highmed.org/fhir/NamingSystem/endpoint-identifier|Test_MeDIC_1_Endpoint"
            }
        }, {
            "fullUrl": "urn:uuid:ede98d88-679f-4e46-8559-f99eb6cb84b8",
            "resource": {
                "resourceType": "Organization",
                "meta": {
                    "profile": ["http://highmed.org/fhir/StructureDefinition/highmed-organization"],
                    "tag": [{
                            "system": "http://highmed.org/fhir/CodeSystem/authorization-role",
                            "code": "REMOTE"
                        }
                    ]
                },
                "extension": [{
                        "url": "http://highmed.org/fhir/StructureDefinition/certificate-thumbprint",
                        "valueString": "c1fdddaeff1cb9937a3ee7be7edcb43bd21d907c7f8060602d276b7c51662e8d023c0991262c7d89dfc8060b2a6f9f4b03258676ee6d9676569fb3d207cf828a"
                    }
                ],
                "identifier": [{
                        "system": "http://highmed.org/fhir/NamingSystem/organization-identifier",
                        "value": "Test_MeDIC_3"
                    }
                ],
                "active": true,
                "type": [{
                        "coding": [{
                                "system": "http://highmed.org/fhir/CodeSystem/organization-type",
                                "code": "MeDIC"
                            }
                        ]
                    }
                ],
                "name": "Test MeDIC 3",
                "endpoint": [{
                        "reference": "urn:uuid:7a6dbc0c-d38d-4107-99ae-7a9bdadcc6b3",
                        "type": "Endpoint"
                    }
                ]
            },
            "request": {
                "method": "PUT",
                "url": "Organization?identifier=http://highmed.org/fhir/NamingSystem/organization-identifier|Test_MeDIC_3"
            }
        }, {
            "fullUrl": "urn:uuid:7a6dbc0c-d38d-4107-99ae-7a9bdadcc6b3",
            "resource": {
                "resourceType": "Endpoint",
                "meta": {
                    "profile": ["http://highmed.org/fhir/StructureDefinition/highmed-endpoint"],
                    "tag": [{
                            "system": "http://highmed.org/fhir/CodeSystem/authorization-role",
                            "code": "REMOTE"
                        }
                    ]
                },
                "identifier": [{
                        "system": "http://highmed.org/fhir/NamingSystem/endpoint-identifier",
                        "value": "Test_MeDIC_3_Endpoint"
                    }
                ],
                "status": "active",
                "connectionType": {
                    "system": "http://terminology.hl7.org/CodeSystem/endpoint-connection-type",
                    "code": "hl7-fhir-rest"
                },
                "name": "Test MeDIC 3 Endpoint",
                "managingOrganization": {
                    "reference": "urn:uuid:ede98d88-679f-4e46-8559-f99eb6cb84b8",
                    "type": "Organization"
                },
                "payloadType": [{
                        "coding": [{
                                "system": "http://hl7.org/fhir/resource-types",
                                "code": "Task"
                            }
                        ]
                    }
                ],
                "payloadMimeType": ["application/fhir+json", "application/fhir+xml"],
                "address": "https://medic3/fhir"
            },
            "request": {
                "method": "PUT",
                "url": "Endpoint?identifier=http://highmed.org/fhir/NamingSystem/endpoint-identifier|Test_MeDIC_3_Endpoint"
            }
        }
    ]
}
